File: packages/dopes/dopes-2025.1.0.tar.gz/dopes-2025.1.0/examples/data_analysis/raman_silicon/data/514nm_1%_15s/W3L150_14_bottom.txt
692.206	-1.33333
691.876	-1.33333
691.546	2
691.215	1.33333
690.885	0
690.555	0.333333
690.225	0
689.895	1.33333
689.564	-0.666667
689.232	1.66667
688.902	2.33333
688.571	1.33333
688.241	0.666667
687.911	2.66667
687.58	2.33333
687.25	1.66667
686.917	-0.333333
686.587	0.666667
686.257	0.333333
685.926	1.66667
685.596	1.33333
685.266	2
684.933	3
684.602	3.66667
684.272	1.33333
683.942	0.666667
683.609	-1
683.279	0
682.948	0.666667
682.617	-0.333333
682.287	2.33333
681.954	0.666667
681.624	2.33333
681.293	-1
680.963	2
680.63	2.66667
680.299	2.66667
679.969	-1
679.636	3.33333
679.305	-1
678.975	-0.333333
678.644	2
678.311	1.66667
677.981	0.666667
677.65	0
677.317	1.33333
676.986	2.33333
676.656	3
676.323	4
675.992	3.33333
675.661	0.333333
675.328	2.33333
674.998	1.66667
674.667	4
674.334	0.666667
674.003	1
673.67	2.33333
673.339	0.666667
673.008	0.666667
672.675	3
672.344	3
672.011	0.666667
671.681	1.33333
671.35	1.66667
671.017	3
670.686	3
670.353	1.66667
670.022	4.66667
669.689	3
669.358	3
669.027	4
668.693	1
668.362	4
668.029	-0.666667
667.698	2.66667
667.365	2.66667
667.034	3.33333
666.701	1
666.37	2
666.036	-0.666667
665.705	2.33333
665.372	4.33333
665.041	-1
664.708	0
664.376	3.33333
664.043	2.66667
663.712	1.66667
663.379	1.33333
663.045	1.33333
662.714	1.33333
662.381	1.33333
662.049	1
661.716	3.33333
661.385	1.66667
661.051	2
660.718	2
660.387	2
660.053	0.666667
659.722	1.66667
659.388	3
659.055	1.66667
658.724	0.666667
658.39	2
658.059	2
657.725	2.33333
657.392	1.33333
657.06	2
656.727	3.66667
656.393	2
656.062	2
655.728	1.66667
655.394	0.666667
655.063	0
654.729	1.66667
654.396	3
654.064	-0.666667
653.73	0.666667
653.397	0.666667
653.063	2
652.731	1.66667
652.398	1
652.064	1.33333
651.73	2.33333
651.399	2.33333
651.065	2
650.731	2.33333
650.397	1.66667
650.066	0
649.732	1.33333
649.398	2
649.064	2.33333
648.732	3.33333
648.399	2.33333
648.065	3.66667
647.731	3.66667
647.397	2.33333
647.065	-0.666667
646.731	1
646.397	1.66667
646.063	-0.333333
645.729	1
645.398	-0.333333
645.064	1
644.73	0.333333
644.396	1.66667
644.062	3.33333
643.727	0.666667
643.393	1
643.062	2
642.727	1.66667
642.393	2
642.059	1
641.725	3
641.391	-2.33333
641.057	4.33333
640.723	2
640.389	2
640.054	2.33333
639.72	2.33333
639.388	4.33333
639.054	3
638.72	-1.33333
638.386	3.33333
638.051	2.66667
637.717	1.33333
637.383	1.33333
637.049	2.33333
636.714	2
636.38	1.66667
636.046	0.333333
635.711	1
635.377	4.66667
635.043	3
634.708	1.33333
634.374	2
634.04	2.66667
633.705	-0.666667
633.371	0.333333
633.036	1.66667
632.702	2
632.368	2.33333
632.033	2
631.699	2.33333
631.364	1
631.03	2.66667
630.693	1.33333
630.359	2.33333
630.024	0.333333
629.689	4
629.355	2.33333
629.02	2.33333
628.686	3.66667
628.351	2.66667
628.017	1.66667
627.682	0.333333
627.345	2.66667
627.011	1.66667
626.676	0.666667
626.341	3.66667
626.007	3.33333
625.672	3.33333
625.337	2.33333
625	1
624.666	3
624.331	3
623.996	2.33333
623.661	3.66667
623.327	4.33333
622.99	0.333333
622.655	2.66667
622.32	2
621.985	0.666667
621.651	4.33333
621.314	0.333333
620.979	1
620.644	3
620.309	2.33333
619.972	4
619.637	0.666667
619.302	4
618.967	3
618.63	1.66667
618.295	4
617.96	3.33333
617.625	1.33333
617.288	0.333333
616.953	3.66667
616.618	1.33333
616.281	3.66667
615.946	2
615.611	2
615.274	4
614.939	1
614.604	3.33333
614.266	5.33333
613.931	3.33333
613.596	2.33333
613.259	3.33333
612.924	1.66667
612.589	3
612.251	2.33333
611.916	-0.333333
611.581	6
611.244	3.66667
610.908	1
610.571	1.66667
610.236	1
609.901	5.33333
609.563	1.33333
609.228	4.33333
608.89	2.33333
608.555	2.33333
608.22	2
607.882	0
607.547	2.33333
607.21	2.66667
606.874	-0.333333
606.537	3
606.201	4
605.864	4.66667
605.528	3.33333
605.193	2.66667
604.855	-0.666667
604.52	1.66667
604.182	3
603.847	-1.66667
603.509	0
603.174	2.66667
602.836	3.66667
602.501	2.33333
602.163	1
601.825	0
601.49	-1.66667
601.152	-0.666667
600.816	0.333333
600.479	2.33333
600.143	1.33333
599.805	1.33333
599.47	1
599.132	1.33333
598.794	0.666667
598.459	1
598.121	2
597.785	2
597.447	2
597.112	2.33333
596.774	3.33333
596.436	3
596.1	0
595.762	-1.66667
595.424	0.333333
595.088	-0.333333
594.75	0.666667
594.415	2
594.077	0.666667
593.739	1
593.403	3.33333
593.065	-1
592.727	-0.666667
592.391	0
592.053	1.66667
591.715	1.33333
591.379	-0.333333
591.041	-1.66667
590.703	1.33333
590.365	3
590.029	2.66667
589.691	2.66667
589.353	2.33333
589.017	1.33333
588.678	1.66667
588.34	1
588.002	0.666667
587.666	-1.33333
587.328	1
586.99	-0.333333
586.651	1
586.315	0
585.977	1.33333
585.639	0.333333
585.3	2.66667
584.962	2.33333
584.626	1
584.288	5
583.949	3.66667
583.611	0
583.273	1.66667
582.936	0
582.598	2.33333
582.26	0.666667
581.921	0.333333
581.583	4.33333
581.244	1.66667
580.906	0
580.57	2
580.231	0.666667
579.893	2.33333
579.554	-1.33333
579.216	0.666667
578.877	2.66667
578.539	2
578.2	-0.333333
577.864	2
577.525	0.333333
577.187	1
576.848	-0.333333
576.51	1.33333
576.171	0.666667
575.832	3
575.494	-0.333333
575.155	1.66667
574.816	1.66667
574.478	1.33333
574.139	0.666667
573.8	0.666667
573.462	2.33333
573.123	0.333333
572.784	1.66667
572.445	3
572.107	1.66667
571.768	2
571.429	1.66667
571.09	3.33333
570.751	0.333333
570.413	1.66667
570.074	1.66667
569.735	2
569.396	3.33333
569.057	2
568.718	3.33333
568.38	3
568.041	4.33333
567.702	1.66667
567.363	2.33333
567.024	-0.333333
566.685	2.33333
566.346	2.66667
566.007	1.66667
565.668	3.66667
565.329	4
564.988	1
564.649	1.33333
564.31	2
563.971	2
563.632	4
563.292	3.33333
562.953	1.33333
562.614	2.66667
562.273	3.33333
561.934	0.333333
561.595	3
561.256	3.66667
560.916	1.66667
560.577	0.666667
560.236	3.33333
559.897	4.66667
559.558	3.33333
559.218	2.33333
558.879	5.66667
558.54	3.33333
558.198	1.66667
557.859	5.33333
557.52	4
557.181	5
556.839	1
556.5	4.33333
556.16	3.66667
555.821	4
555.48	3.66667
555.14	4.33333
554.801	3.66667
554.461	4.33333
554.12	3
553.78	0.666667
553.441	2.66667
553.102	3.33333
552.76	3
552.42	6.33333
552.081	4.66667
551.739	2
551.4	3
551.06	3.66667
550.719	5.33333
550.379	3.66667
550.039	4
549.698	2.66667
549.358	3.33333
549.019	5
548.677	3
548.337	3
547.998	4.33333
547.656	5
547.316	6.33333
546.977	2
546.635	5.66667
546.295	7
545.953	6
545.613	3
545.274	6.66667
544.932	5.66667
544.592	7
544.25	8.33333
543.91	7
543.57	7
543.229	3.33333
542.889	7.33333
542.547	10.3333
542.207	4
541.865	10.6667
541.525	8
541.183	11.6667
540.843	7
540.501	9
540.161	12
539.819	7.66667
539.479	12.6667
539.137	14
538.797	11.6667
538.455	12.3333
538.115	13.6667
537.773	13.3333
537.433	10.6667
537.091	12.6667
536.75	12
536.408	14.3333
536.068	13.3333
535.726	16.6667
535.386	15.3333
535.044	17
534.703	20.3333
534.361	18.3333
534.019	19.3333
533.679	18.6667
533.336	21.3333
532.996	23.3333
532.654	22.6667
532.312	21.6667
531.971	23.6667
531.629	25.6667
531.289	31.3333
530.946	26
530.604	24.3333
530.264	29.6667
529.921	30
529.579	33.6667
529.238	38
528.896	37.3333
528.556	37.3333
528.213	45.3333
527.871	43.6667
527.53	49.6667
527.188	57.6667
526.845	57.6667
526.503	67
526.162	77.6667
525.819	81.6667
525.477	81
525.136	101
524.794	114
524.451	121.667
524.111	151
523.768	162.667
523.425	194.667
523.083	223.333
522.742	279.667
522.399	344.333
522.057	419.333
521.714	524
521.373	626.333
521.03	734.667
520.688	859
520.345	947
520.002	1025.67
519.661	1026.67
519.319	1087.33
518.976	1099.33
518.633	1132.67
518.29	1139
517.949	1169
517.606	1124
517.263	1029.67
516.921	922.667
516.578	810.333
516.235	681
515.894	583.333
515.551	464.667
515.208	376.667
514.865	316.667
514.522	257.667
514.179	221.333
513.836	192.667
513.493	161.333
513.152	139.333
512.809	121
512.466	112.667
512.123	91
511.779	77.3333
511.436	69
511.093	65
510.75	68.6667
510.407	57
510.064	54.3333
509.721	44.6667
509.377	46
509.034	40.6667
508.693	37
508.35	35.6667
508.007	32.3333
507.663	33
507.32	33
506.977	28
506.633	30
506.29	26.6667
505.947	20.6667
505.604	21.6667
505.26	20.3333
504.917	20
504.573	18.6667
504.23	20.6667
503.887	17.3333
503.543	16
503.2	16
502.854	17
502.511	14.6667
502.167	15.6667
501.824	14.6667
501.48	16.3333
501.137	12.6667
500.793	14.3333
500.45	13.6667
500.106	10.6667
499.763	12
499.419	11
499.076	11.3333
498.732	7.33333
498.386	8.33333
498.043	9.66667
497.699	9.33333
497.355	7
497.012	10.3333
496.668	6.33333
496.324	6
495.981	7.66667
495.635	10.6667
495.291	7
494.947	10.6667
494.604	8.66667
494.26	9.66667
493.916	8.33333
493.57	5.33333
493.226	5.66667
492.883	6.33333
492.539	5
492.195	2.33333
491.849	7.33333
491.505	7.66667
491.161	5
490.817	4
490.471	9.33333
490.127	8.33333
489.783	7.66667
489.439	5
489.093	7.33333
488.749	5.33333
488.405	5.33333
488.061	6.33333
487.715	6.33333
487.371	6
487.027	6.66667
486.683	5
486.337	5.66667
485.993	5.33333
485.649	3.33333
485.303	2.66667
484.959	5.66667
484.614	4
484.268	5
483.924	4.66667
483.58	3.66667
483.234	1
482.889	7
482.545	5.33333
482.199	3.66667
481.855	5.33333
481.51	4
481.164	3
480.82	5.66667
480.476	2.33333
480.129	3
479.785	3.66667
479.438	5
479.094	3
478.75	3
478.403	3.66667
478.059	6
477.712	5
477.368	2.66667
477.024	3.66667
476.677	4
476.333	3.66667
475.986	6
475.642	4.33333
475.295	3
474.951	3.66667
474.604	3.66667
474.259	4.33333
473.913	2.33333
473.568	3
473.221	-0.333333
472.877	1.33333
472.53	3
472.186	2.33333
471.839	3.66667
471.494	3
471.148	3.66667
470.803	2.33333
470.456	-0.333333
470.112	1.33333
469.765	3.33333
469.42	1.66667
469.073	0.333333
468.728	-0.666667
468.382	3
468.037	3.33333
467.69	2.66667
467.343	2
466.998	3.33333
466.651	4.33333
466.307	4.66667
465.96	2.66667
465.613	2.33333
465.268	4
464.921	1.66667
464.576	2
464.229	2
463.882	2.66667
463.537	0.333333
463.19	1
462.845	1
462.498	1
462.151	0
461.806	-1.66667
461.459	1
461.112	1
460.767	1.66667
460.42	0.666667
460.072	0
459.727	4.33333
459.38	2.66667
459.033	0
458.686	2.33333
458.341	0.333333
457.993	-0.666667
457.646	0
457.301	2
456.954	1.66667
456.606	1
456.259	-2.66667
455.914	0.666667
455.567	1
455.219	1.66667
454.872	2.66667
454.527	2
454.179	4
453.832	1
453.484	2
453.139	0.333333
452.792	2.66667
452.444	0
452.097	2
451.749	1.66667
451.404	2
451.056	0.333333
450.709	3.33333
450.361	2.66667
450.014	0.333333
449.668	2
449.321	0.666667
448.973	0.333333
448.626	1.66667
448.278	5
447.93	2
447.583	0
447.237	-0.666667
446.89	2
446.542	1
446.194	0.333333
445.847	2.33333
445.499	0.333333
445.151	1
444.803	4.33333
444.456	2
444.11	1.33333
443.762	2.33333
443.414	0
443.067	1.33333
442.719	4.33333
442.371	-0.333333
442.023	0
441.675	3
441.327	3.33333
440.979	3.66667
440.632	2.66667
440.284	2.66667
439.936	3.33333
439.588	4.33333
439.24	3.33333
438.892	5.33333
438.544	-1
438.196	0
437.848	4
437.5	4.66667
437.152	3.66667
436.804	3
436.456	3.33333
436.108	6.33333
435.76	6.33333
435.412	2
435.063	3.66667
434.715	2
434.367	3.66667
434.019	4
433.671	4
433.323	3
432.975	4.33333
432.626	2.66667
432.278	0
431.928	3.66667
431.579	4.66667
431.231	4
430.883	3.66667
430.535	3.66667
430.186	2
429.838	2
429.49	2.33333
429.142	1.66667
428.791	1.66667
428.443	1
428.094	2.66667
427.746	2.33333
427.398	3
427.049	4.66667
426.701	5.66667
426.35	4.33333
426.002	4
425.653	1.66667
425.305	5
424.956	2.33333
424.606	3.66667
424.257	0.666667
423.909	2
423.56	2.66667
423.211	1.66667
422.861	1.66667
422.512	2
422.164	3
421.815	0.666667
421.466	2.66667
421.116	2.33333
420.767	0.666667
420.418	4.33333
420.067	1
419.719	3.66667
419.37	2.66667
419.021	3.66667
418.671	1.66667
418.322	2.33333
417.973	4.66667
417.624	1.33333
417.273	3
416.925	1.33333
416.576	0
416.225	2
415.876	0
415.527	3
415.176	4.33333
414.827	0.666667
414.478	2.33333
414.127	-0.666667
413.778	5
413.43	2
413.078	1.33333
412.73	3.33333
412.381	0.666667
412.029	2.33333
411.68	-1
411.329	3
410.98	4
410.631	1.33333
410.28	1
409.931	0.333333
409.58	2.66667
409.231	0.666667
408.882	1
408.53	4
408.181	1.66667
407.83	1
407.481	-1
407.13	2
406.78	3.33333
406.429	4.33333
406.08	0.333333
405.731	1
405.379	1.66667
405.03	1.33333
404.679	1.33333
404.329	0.333333
403.978	2.66667
403.629	1
403.277	0.666667
402.928	0.666667
402.576	1.66667
402.227	2.33333
401.876	1
401.526	4
401.175	2
400.825	1
400.474	0.666667
400.122	1.33333
399.773	4
399.421	2
399.072	1.66667
398.72	2.33333
398.371	4
398.019	3.66667
397.667	1.33333
397.318	2.33333
396.966	0
396.617	2
396.265	1
395.915	2
395.564	4.33333
395.212	1.33333
394.862	4
394.51	1
394.159	2
393.809	5
393.457	1.33333
393.107	2.66667
392.756	2.33333
392.404	3
392.054	2.33333
391.702	1.33333
391.35	4
391	4.66667
390.648	2.66667
390.297	1.66667
389.945	2.66667
389.595	2.33333
389.243	1.33333
388.891	2
388.541	3.66667
388.189	2
387.837	3
387.487	3
387.135	2.33333
386.783	1.33333
386.431	1
386.081	3
385.729	2.33333
385.377	2.33333
385.024	1.66667
384.674	3.33333
384.322	2
383.97	4
383.618	0.666667
383.266	3.33333
382.916	4.33333
382.563	1.33333
382.211	1.66667
381.859	1.33333
381.507	2.66667
381.157	1.33333
380.804	1
380.452	2
380.1	3
379.747	0.666667
379.397	0
379.045	1.66667
378.692	1.33333
378.34	3.66667
377.987	5
377.635	3.66667
377.283	2.66667
376.932	1.66667
376.58	2.66667
376.227	2.33333
375.875	0.333333
375.522	1.66667
375.17	0.666667
374.817	4.33333
374.465	4.33333
374.112	0.666667
373.76	3.66667
373.409	6
373.057	4.33333
372.704	1.66667
372.352	1.33333
371.999	1.33333
371.646	2.33333
371.294	3.66667
370.941	1.66667
370.588	3.33333
370.236	0.666667
369.883	4
369.53	1
369.177	1.66667
368.825	1.33333
368.472	0.333333
368.119	3
367.766	2.33333
367.413	0.666667
367.061	2
366.708	4
366.355	3.66667
366.002	1.66667
365.649	4
365.296	2.33333
364.943	3.66667
364.591	2.66667
364.238	4.33333
363.885	0.666667
363.532	6
363.179	1
362.826	1.33333
362.471	2.66667
362.118	0.666667
361.765	4
361.411	1.33333
361.058	4
360.705	2.33333
360.352	4.66667
359.999	3.33333
359.646	3.66667
359.293	5.33333
358.938	3.33333
358.585	4
358.231	2.66667
357.878	3.66667
357.525	5
357.172	5.66667
356.819	1.33333
356.463	3
356.11	3.33333
355.757	2.33333
355.404	-0.333333
355.05	4
354.697	3.33333
354.342	3.33333
353.988	2.33333
353.635	5
353.282	3.33333
352.928	4.66667
352.573	4
352.219	3
351.866	5.33333
351.513	2.33333
351.157	2.66667
350.803	1.66667
350.45	4.66667
350.097	3
349.741	1
349.387	0.666667
349.034	4.33333
348.68	0.666667
348.325	4.33333
347.971	3.66667
347.618	5
347.264	3.66667
346.908	4
346.555	1.66667
346.201	4.66667
345.845	4.66667
345.492	0
345.138	0.666667
344.782	1.66667
344.429	4
344.075	3
343.719	6.66667
343.365	3
343.012	-0.333333
342.656	1.66667
342.302	5.33333
341.948	2