File: packages/dopes/dopes-2025.1.0.tar.gz/dopes-2025.1.0/examples/data_analysis/raman_silicon/data/514nm_1%_15s/W3L150_5_top.txt
692.206	-1
691.876	-1.33333
691.546	-1
691.215	0
690.885	-2.33333
690.555	0.333333
690.225	1
689.895	-0.666667
689.564	-0.333333
689.232	1
688.902	0
688.571	0
688.241	-1
687.911	2.33333
687.58	-0.666667
687.25	1.33333
686.917	1
686.587	1.66667
686.257	1.33333
685.926	1
685.596	-3
685.266	0.333333
684.933	-2
684.602	-0.333333
684.272	-1.33333
683.942	1
683.609	0
683.279	0.666667
682.948	1.33333
682.617	-0.333333
682.287	2
681.954	1.33333
681.624	3
681.293	0.333333
680.963	1.33333
680.63	2
680.299	-1
679.969	-1
679.636	1
679.305	0.333333
678.975	0.333333
678.644	1.33333
678.311	1
677.981	1
677.65	1
677.317	0.666667
676.986	1
676.656	1
676.323	-1
675.992	3.33333
675.661	1.66667
675.328	1.66667
674.998	3.33333
674.667	0.333333
674.334	0
674.003	1.66667
673.67	-1
673.339	0
673.008	0.666667
672.675	1.66667
672.344	1.33333
672.011	0.666667
671.681	2.66667
671.35	3
671.017	1.66667
670.686	2
670.353	1
670.022	-1.33333
669.689	0.666667
669.358	1
669.027	0
668.693	0
668.362	2
668.029	0
667.698	3.33333
667.365	-1
667.034	1.33333
666.701	1
666.37	1.33333
666.036	0
665.705	2.33333
665.372	0
665.041	1.33333
664.708	3.33333
664.376	1.33333
664.043	-1
663.712	1
663.379	-0.666667
663.045	0
662.714	-0.666667
662.381	0.333333
662.049	1
661.716	-1
661.385	2.66667
661.051	0.333333
660.718	3
660.387	2.33333
660.053	2.33333
659.722	5.66667
659.388	2
659.055	2.66667
658.724	2
658.39	-1.66667
658.059	1.66667
657.725	2
657.392	1.33333
657.06	3
656.727	0
656.393	0.333333
656.062	-0.333333
655.728	0.333333
655.394	0.666667
655.063	1.66667
654.729	1.66667
654.396	1.33333
654.064	0.333333
653.73	1
653.397	-0.333333
653.063	3.33333
652.731	0.666667
652.398	1.66667
652.064	1.33333
651.73	1.33333
651.399	-1
651.065	3
650.731	1.66667
650.397	-2.33333
650.066	-1
649.732	0.333333
649.398	0
649.064	1.66667
648.732	0.333333
648.399	2.33333
648.065	-1.33333
647.731	0.333333
647.397	0.333333
647.065	2.66667
646.731	1.33333
646.397	-0.666667
646.063	-1.66667
645.729	-1.33333
645.398	0.333333
645.064	3.66667
644.73	0
644.396	1.33333
644.062	2.66667
643.727	0.333333
643.393	0.333333
643.062	0
642.727	-3.66667
642.393	2.66667
642.059	0
641.725	0.666667
641.391	1
641.057	1.33333
640.723	1.66667
640.389	0.333333
640.054	4.33333
639.72	0
639.388	1.66667
639.054	0.333333
638.72	1.66667
638.386	-2
638.051	1
637.717	0.666667
637.383	0.666667
637.049	-1.66667
636.714	1.66667
636.38	-1
636.046	1.33333
635.711	0.666667
635.377	1
635.043	-1
634.708	2.66667
634.374	1.66667
634.04	3.66667
633.705	0.666667
633.371	1.33333
633.036	-1.66667
632.702	0.333333
632.368	0
632.033	1.33333
631.699	1.66667
631.364	0
631.03	-0.333333
630.693	0.666667
630.359	-1
630.024	1.33333
629.689	2
629.355	0.333333
629.02	3.66667
628.686	0
628.351	0
628.017	3
627.682	1
627.345	3
627.011	1.33333
626.676	1.33333
626.341	0.666667
626.007	3
625.672	0.666667
625.337	-2
625	3.33333
624.666	2.33333
624.331	1
623.996	4
623.661	3.33333
623.327	3.66667
622.99	3
622.655	1.33333
622.32	3
621.985	0.333333
621.651	-1.33333
621.314	2.66667
620.979	3
620.644	2.33333
620.309	1.33333
619.972	2.33333
619.637	3.33333
619.302	3.66667
618.967	2
618.63	4
618.295	3.33333
617.96	-1
617.625	3
617.288	2.66667
616.953	1.66667
616.618	0.666667
616.281	2.33333
615.946	2.33333
615.611	3.66667
615.274	1.33333
614.939	2
614.604	2
614.266	1
613.931	1
613.596	1.33333
613.259	2.66667
612.924	1.66667
612.589	3.33333
612.251	4.33333
611.916	3
611.581	-0.666667
611.244	2.66667
610.908	3
610.571	2
610.236	1.66667
609.901	0.666667
609.563	3
609.228	-0.666667
608.89	0.666667
608.555	-1.66667
608.22	0.333333
607.882	2.33333
607.547	2.33333
607.21	0.333333
606.874	1
606.537	3.66667
606.201	0.666667
605.864	3.66667
605.528	0.666667
605.193	1
604.855	2
604.52	-2
604.182	1
603.847	0
603.509	3.66667
603.174	1
602.836	0
602.501	-0.666667
602.163	2.66667
601.825	-2
601.49	1.66667
601.152	0.666667
600.816	0
600.479	-3.33333
600.143	1.33333
599.805	0.333333
599.47	0
599.132	0
598.794	-4
598.459	-0.333333
598.121	-0.666667
597.785	1.66667
597.447	0.333333
597.112	1.66667
596.774	2.33333
596.436	0.666667
596.1	1
595.762	1
595.424	2.66667
595.088	-0.333333
594.75	2
594.415	0
594.077	0.666667
593.739	1
593.403	0.666667
593.065	3.33333
592.727	3.66667
592.391	0.666667
592.053	2
591.715	1.66667
591.379	1
591.041	2
590.703	1.33333
590.365	-0.666667
590.029	1.33333
589.691	-0.666667
589.353	3
589.017	3.66667
588.678	-1
588.34	-0.333333
588.002	-0.333333
587.666	0
587.328	-1.66667
586.99	0
586.651	2.33333
586.315	-0.333333
585.977	1.66667
585.639	0
585.3	-1
584.962	2.33333
584.626	-0.333333
584.288	1.33333
583.949	-0.666667
583.611	1.66667
583.273	-1
582.936	0.333333
582.598	0.333333
582.26	0
581.921	0.333333
581.583	-0.666667
581.244	1.66667
580.906	-2
580.57	0.333333
580.231	2
579.893	-1.66667
579.554	0.333333
579.216	-2
578.877	0.666667
578.539	0.666667
578.2	0.666667
577.864	1.33333
577.525	1.66667
577.187	2.33333
576.848	0
576.51	1
576.171	3.33333
575.832	-1.66667
575.494	1.66667
575.155	-0.666667
574.816	1.33333
574.478	1.33333
574.139	1.66667
573.8	1.33333
573.462	0.333333
573.123	1
572.784	0.666667
572.445	0.666667
572.107	-0.333333
571.768	-2
571.429	4.33333
571.09	3.33333
570.751	2.33333
570.413	2.33333
570.074	0.666667
569.735	-0.666667
569.396	3
569.057	-1.33333
568.718	-1
568.38	1
568.041	3
567.702	0.333333
567.363	1.33333
567.024	1.33333
566.685	1
566.346	-0.333333
566.007	2.66667
565.668	2.33333
565.329	1.33333
564.988	-0.333333
564.649	0.666667
564.31	0
563.971	1.33333
563.632	2.66667
563.292	2.33333
562.953	1.33333
562.614	0
562.273	2.33333
561.934	1.33333
561.595	1.66667
561.256	2.33333
560.916	0.333333
560.577	1
560.236	2
559.897	1.66667
559.558	4
559.218	1.33333
558.879	2.66667
558.54	3
558.198	3.33333
557.859	1.66667
557.52	3
557.181	2.66667
556.839	2.33333
556.5	2
556.16	1.66667
555.821	1.33333
555.48	1.33333
555.14	0.666667
554.801	3.66667
554.461	3.33333
554.12	3.33333
553.78	1.33333
553.441	3
553.102	2.66667
552.76	3
552.42	1.66667
552.081	1.66667
551.739	4
551.4	5.33333
551.06	3
550.719	4.33333
550.379	3.66667
550.039	4.33333
549.698	3.33333
549.358	4
549.019	4.33333
548.677	6.33333
548.337	6.66667
547.998	6.33333
547.656	4.66667
547.316	3.33333
546.977	3.66667
546.635	5.33333
546.295	4.33333
545.953	3.33333
545.613	5.66667
545.274	5
544.932	7.33333
544.592	6.33333
544.25	7.66667
543.91	7.66667
543.57	6
543.229	8.66667
542.889	7.66667
542.547	2.33333
542.207	7.33333
541.865	8.33333
541.525	8.33333
541.183	9
540.843	10.6667
540.501	8
540.161	12.6667
539.819	12.6667
539.479	8.66667
539.137	8.33333
538.797	9.66667
538.455	12.6667
538.115	13.6667
537.773	12.3333
537.433	9.33333
537.091	8.66667
536.75	12.3333
536.408	16
536.068	10.3333
535.726	12.6667
535.386	14
535.044	15.6667
534.703	16
534.361	15
534.019	17.6667
533.679	19.3333
533.336	15.6667
532.996	22.6667
532.654	18.6667
532.312	21.6667
531.971	19
531.629	23.3333
531.289	26.6667
530.946	30.3333
530.604	22
530.264	31
529.921	33.3333
529.579	36.3333
529.238	41.3333
528.896	40.6667
528.556	43
528.213	47
527.871	46.6667
527.53	56
527.188	56.6667
526.845	62
526.503	77
526.162	86.6667
525.819	84.6667
525.477	104
525.136	120.333
524.794	128
524.451	157.667
524.111	174
523.768	204
523.425	251
523.083	306
522.742	382
522.399	464
522.057	576
521.714	726.333
521.373	899.333
521.03	1077.33
520.688	1237
520.345	1339.33
520.002	1383.67
519.661	1320.67
519.319	1218
518.976	1040
518.633	864.667
518.29	716.667
517.949	568.667
517.606	453.333
517.263	356.333
516.921	292
516.578	259.667
516.235	218.667
515.894	175
515.551	151.667
515.208	132.333
514.865	113.667
514.522	104.333
514.179	88.3333
513.836	84.6667
513.493	65
513.152	63
512.809	53.3333
512.466	54
512.123	51.6667
511.779	46.6667
511.436	39.6667
511.093	45.3333
510.75	32.6667
510.407	33.6667
510.064	27
509.721	31.6667
509.377	30.3333
509.034	25.6667
508.693	30.3333
508.35	23.6667
508.007	19
507.663	17.3333
507.32	21.3333
506.977	17.3333
506.633	16.6667
506.29	18.3333
505.947	16.3333
505.604	17.3333
505.26	16.3333
504.917	17
504.573	13.3333
504.23	13
503.887	12.6667
503.543	11.6667
503.2	11.6667
502.854	13
502.511	8.66667
502.167	9
501.824	7.33333
501.48	5.66667
501.137	11
500.793	10
500.45	13.3333
500.106	10
499.763	7.33333
499.419	6.66667
499.076	6.66667
498.732	10.3333
498.386	3.33333
498.043	5.33333
497.699	6
497.355	9.33333
497.012	6.33333
496.668	7
496.324	5.33333
495.981	5.66667
495.635	5.66667
495.291	5.66667
494.947	8.66667
494.604	6
494.26	5.66667
493.916	5.66667
493.57	4.33333
493.226	5.33333
492.883	6.66667
492.539	4
492.195	5
491.849	2.66667
491.505	5.66667
491.161	5
490.817	4.66667
490.471	6.33333
490.127	4.33333
489.783	5.33333
489.439	8
489.093	1.33333
488.749	4.66667
488.405	2.66667
488.061	3.33333
487.715	4.66667
487.371	3.66667
487.027	6.33333
486.683	7
486.337	4.66667
485.993	5.66667
485.649	4.33333
485.303	2
484.959	6.66667
484.614	0.666667
484.268	2.66667
483.924	5
483.58	4
483.234	1
482.889	4.33333
482.545	5.66667
482.199	3.66667
481.855	3.33333
481.51	2
481.164	3.33333
480.82	3.66667
480.476	1.33333
480.129	-1.66667
479.785	2.33333
479.438	3.33333
479.094	2
478.75	3
478.403	2.66667
478.059	3
477.712	5
477.368	3.66667
477.024	-0.333333
476.677	2.66667
476.333	2.66667
475.986	3
475.642	0.333333
475.295	3.66667
474.951	2.33333
474.604	2.33333
474.259	1.66667
473.913	2.33333
473.568	1.66667
473.221	4
472.877	5.33333
472.53	1.66667
472.186	2.33333
471.839	1.33333
471.494	0.333333
471.148	-0.333333
470.803	3
470.456	0.333333
470.112	1.33333
469.765	3
469.42	1
469.073	3
468.728	3.66667
468.382	2
468.037	2.66667
467.69	0.666667
467.343	0
466.998	0
466.651	3
466.307	1
465.96	0
465.613	1.33333
465.268	1.66667
464.921	2.33333
464.576	1
464.229	1.33333
463.882	3.33333
463.537	1.33333
463.19	1.66667
462.845	1.33333
462.498	0
462.151	-1
461.806	1
461.459	-1
461.112	-1
460.767	0.333333
460.42	2.66667
460.072	2.66667
459.727	0.666667
459.38	1
459.033	3
458.686	2
458.341	0.333333
457.993	-1
457.646	0.666667
457.301	0.333333
456.954	1.66667
456.606	2.33333
456.259	1.33333
455.914	-0.333333
455.567	2.66667
455.219	2
454.872	1.33333
454.527	2.66667
454.179	1
453.832	4
453.484	0.666667
453.139	4.66667
452.792	1.66667
452.444	2
452.097	1
451.749	2
451.404	1.66667
451.056	2.66667
450.709	2.33333
450.361	2
450.014	2
449.668	0
449.321	1
448.973	3.33333
448.626	2.66667
448.278	2.33333
447.93	1.66667
447.583	3.33333
447.237	1.33333
446.89	1.66667
446.542	3
446.194	2.33333
445.847	-0.333333
445.499	-1.66667
445.151	1.33333
444.803	2.66667
444.456	2.33333
444.11	0
443.762	1.33333
443.414	0.666667
443.067	1.66667
442.719	2.66667
442.371	0.333333
442.023	-0.333333
441.675	2
441.327	3
440.979	2
440.632	-0.666667
440.284	2.66667
439.936	-2.66667
439.588	3.33333
439.24	3.66667
438.892	2.66667
438.544	2.33333
438.196	2
437.848	2.66667
437.5	3
437.152	-0.333333
436.804	5
436.456	0.666667
436.108	0.333333
435.76	1
435.412	1.66667
435.063	1.33333
434.715	3
434.367	1.33333
434.019	1.66667
433.671	4.66667
433.323	3.66667
432.975	0.333333
432.626	2
432.278	2
431.928	1.66667
431.579	1
431.231	4.66667
430.883	2.66667
430.535	3.66667
430.186	1.66667
429.838	4.33333
429.49	0.666667
429.142	1
428.791	3.66667
428.443	3.33333
428.094	2
427.746	3
427.398	1
427.049	0.666667
426.701	3
426.35	-0.666667
426.002	1.33333
425.653	1
425.305	4.33333
424.956	1.66667
424.606	3.66667
424.257	2.33333
423.909	0.333333
423.56	2.33333
423.211	1.33333
422.861	1.33333
422.512	1.66667
422.164	3
421.815	1.66667
421.466	0.333333
421.116	-0.333333
420.767	2
420.418	2
420.067	3.33333
419.719	2.33333
419.37	-0.666667
419.021	1.66667
418.671	2.33333
418.322	4
417.973	2.66667
417.624	-3
417.273	2
416.925	1
416.576	3.33333
416.225	-2
415.876	-1
415.527	1.33333
415.176	0.666667
414.827	0.666667
414.478	0
414.127	4
413.778	1.66667
413.43	1.33333
413.078	0.333333
412.73	2.33333
412.381	1.33333
412.029	2.33333
411.68	1.66667
411.329	6.33333
410.98	1.33333
410.631	2.33333
410.28	1.66667
409.931	0
409.58	0
409.231	2.66667
408.882	1
408.53	3
408.181	1.33333
407.83	2
407.481	4.33333
407.13	1.66667
406.78	4.66667
406.429	1.66667
406.08	3.33333
405.731	-1
405.379	1
405.03	0.333333
404.679	1
404.329	2
403.978	3.33333
403.629	1.33333
403.277	-0.333333
402.928	2.33333
402.576	3.33333
402.227	1.66667
401.876	2.33333
401.526	1.66667
401.175	0.666667
400.825	1.66667
400.474	4.33333
400.122	4.33333
399.773	3.33333
399.421	1
399.072	1
398.72	0.333333
398.371	-1
398.019	2.33333
397.667	1
397.318	0.333333
396.966	1.66667
396.617	2
396.265	2.33333
395.915	3.66667
395.564	1.66667
395.212	0.333333
394.862	0.666667
394.51	0.333333
394.159	1.66667
393.809	3.33333
393.457	0.333333
393.107	0.666667
392.756	2
392.404	-0.333333
392.054	2.33333
391.702	2.33333
391.35	2.33333
391	2.33333
390.648	2.66667
390.297	3.33333
389.945	0.333333
389.595	1.33333
389.243	0.333333
388.891	4
388.541	-0.666667
388.189	2.66667
387.837	2
387.487	3
387.135	3.33333
386.783	1
386.431	1.66667
386.081	1.66667
385.729	3.33333
385.377	-1.66667
385.024	1
384.674	2.33333
384.322	3.33333
383.97	0.666667
383.618	2.33333
383.266	2.33333
382.916	1
382.563	1.66667
382.211	2.33333
381.859	4.33333
381.507	1.33333
381.157	1
380.804	3
380.452	0.333333
380.1	3.33333
379.747	4.66667
379.397	4.66667
379.045	2.33333
378.692	2.66667
378.34	2.66667
377.987	4
377.635	1
377.283	0.666667
376.932	1.33333
376.58	1.66667
376.227	1.33333
375.875	3
375.522	2
375.17	0.666667
374.817	3
374.465	0.666667
374.112	2
373.76	1.66667
373.409	2
373.057	2.66667
372.704	3
372.352	4
371.999	5.33333
371.646	0
371.294	2
370.941	1.66667
370.588	2
370.236	0
369.883	1.66667
369.53	2
369.177	2.66667
368.825	0
368.472	1.33333
368.119	1
367.766	2.33333
367.413	4
367.061	2.66667
366.708	0.333333
366.355	0.666667
366.002	3
365.649	1
365.296	4
364.943	3
364.591	1.66667
364.238	3.33333
363.885	0.666667
363.532	1.66667
363.179	3.66667
362.826	0.666667
362.471	1.66667
362.118	2
361.765	-1
361.411	4
361.058	2
360.705	3.33333
360.352	0.333333
359.999	-0.333333
359.646	-1.66667
359.293	2.33333
358.938	2
358.585	2.66667
358.231	2
357.878	0.333333
357.525	-0.666667
357.172	3
356.819	4
356.463	5
356.11	0.333333
355.757	0
355.404	5.33333
355.05	3
354.697	3.33333
354.342	4
353.988	4
353.635	2
353.282	0
352.928	3
352.573	-0.333333
352.219	3
351.866	4
351.513	1
351.157	3
350.803	2.33333
350.45	0.333333
350.097	3
349.741	2.33333
349.387	2.33333
349.034	1
348.68	4
348.325	2.33333
347.971	4
347.618	3.66667
347.264	1.33333
346.908	2.66667
346.555	1.33333
346.201	1
345.845	3.66667
345.492	1.66667
345.138	4.66667
344.782	4.33333
344.429	2.33333
344.075	1.33333
343.719	0.666667
343.365	2.33333
343.012	0.666667
342.656	2
342.302	4.33333
341.948	1.66667