File: packages/dopes/dopes-2025.1.0.tar.gz/dopes-2025.1.0/examples/data_analysis/raman_silicon/data/514nm_1%_15s/W3L150_7_bottom.txt
692.206	1
691.876	-1.33333
691.546	-1
691.215	0
690.885	2.66667
690.555	0
690.225	0.333333
689.895	1
689.564	-0.333333
689.232	-0.333333
688.902	2.66667
688.571	1.66667
688.241	0.666667
687.911	2
687.58	0
687.25	0.333333
686.917	1
686.587	-0.666667
686.257	2.33333
685.926	-0.666667
685.596	0
685.266	3
684.933	0
684.602	0
684.272	0.666667
683.942	2.33333
683.609	2
683.279	-0.666667
682.948	-1
682.617	1.33333
682.287	1
681.954	2.33333
681.624	0.666667
681.293	-0.666667
680.963	1
680.63	-0.333333
680.299	2.66667
679.969	2.33333
679.636	2.33333
679.305	0.333333
678.975	3.33333
678.644	3
678.311	-1.33333
677.981	2
677.65	-0.333333
677.317	-0.333333
676.986	0.666667
676.656	1.33333
676.323	3.66667
675.992	3
675.661	5
675.328	1.66667
674.998	1.66667
674.667	1.66667
674.334	1
674.003	0
673.67	0.666667
673.339	2
673.008	4.66667
672.675	1.66667
672.344	2
672.011	2.33333
671.681	2.66667
671.35	4.33333
671.017	0.666667
670.686	1.33333
670.353	2.33333
670.022	-0.666667
669.689	2.33333
669.358	2.66667
669.027	4
668.693	-0.666667
668.362	0.666667
668.029	0.333333
667.698	3.33333
667.365	3
667.034	0.333333
666.701	2.33333
666.37	0.666667
666.036	3.66667
665.705	1.33333
665.372	1.66667
665.041	1.66667
664.708	-1
664.376	1.33333
664.043	1
663.712	1.33333
663.379	1.33333
663.045	0.333333
662.714	4
662.381	2.33333
662.049	0
661.716	0.333333
661.385	1.66667
661.051	2.66667
660.718	2.66667
660.387	1.33333
660.053	3
659.722	0.666667
659.388	2.33333
659.055	0.333333
658.724	1.66667
658.39	0.333333
658.059	2
657.725	-0.333333
657.392	2.33333
657.06	4
656.727	-3
656.393	3
656.062	2
655.728	1
655.394	1
655.063	1
654.729	2.66667
654.396	-2
654.064	0
653.73	3
653.397	4
653.063	0.666667
652.731	2.66667
652.398	1
652.064	4.33333
651.73	3.33333
651.399	2.66667
651.065	4
650.731	-2
650.397	2
650.066	1
649.732	1.33333
649.398	0.333333
649.064	1.66667
648.732	3
648.399	0.333333
648.065	2
647.731	3.33333
647.397	-0.333333
647.065	4.33333
646.731	1.33333
646.397	-1
646.063	1.66667
645.729	3
645.398	2.33333
645.064	1.66667
644.73	0.333333
644.396	-1
644.062	0.333333
643.727	0
643.393	3.66667
643.062	1.66667
642.727	-0.333333
642.393	2
642.059	0.666667
641.725	2
641.391	2.33333
641.057	0
640.723	2
640.389	2.33333
640.054	2.66667
639.72	3
639.388	1
639.054	1
638.72	-0.666667
638.386	3.66667
638.051	2.66667
637.717	1.66667
637.383	4
637.049	0.333333
636.714	2.33333
636.38	2
636.046	0
635.711	1.33333
635.377	1
635.043	2.66667
634.708	1.33333
634.374	2.66667
634.04	2.33333
633.705	2.66667
633.371	1.33333
633.036	3
632.702	1.33333
632.368	0.666667
632.033	2
631.699	0.666667
631.364	1
631.03	2.66667
630.693	2.66667
630.359	2.33333
630.024	1.66667
629.689	4.33333
629.355	2
629.02	3.33333
628.686	-0.666667
628.351	2.33333
628.017	2.33333
627.682	3
627.345	2.33333
627.011	1
626.676	4
626.341	2.66667
626.007	3
625.672	3.33333
625.337	3.33333
625	0.666667
624.666	-1.66667
624.331	2
623.996	3
623.661	3.33333
623.327	3.66667
622.99	2
622.655	0
622.32	2
621.985	2
621.651	4.66667
621.314	4
620.979	2.33333
620.644	2
620.309	5
619.972	1
619.637	4
619.302	4.33333
618.967	2.33333
618.63	5.66667
618.295	4
617.96	2.33333
617.625	1.66667
617.288	4
616.953	5
616.618	6.33333
616.281	6.66667
615.946	4
615.611	6
615.274	3.66667
614.939	1.66667
614.604	3.66667
614.266	2.66667
613.931	4
613.596	2.66667
613.259	5
612.924	5.33333
612.589	0.666667
612.251	1.33333
611.916	2.66667
611.581	3.33333
611.244	-3.66667
610.908	1
610.571	2
610.236	0
609.901	1.33333
609.563	1.66667
609.228	4
608.89	4.66667
608.555	1.33333
608.22	3
607.882	0.333333
607.547	2.33333
607.21	1
606.874	0.333333
606.537	2
606.201	0.666667
605.864	-0.333333
605.528	4.33333
605.193	2
604.855	0.666667
604.52	0.666667
604.182	2
603.847	-2
603.509	2.33333
603.174	2.33333
602.836	-2
602.501	3.33333
602.163	2.33333
601.825	-0.333333
601.49	1.33333
601.152	0.333333
600.816	1.33333
600.479	1.66667
600.143	3.66667
599.805	1.66667
599.47	2
599.132	2.33333
598.794	0.333333
598.459	2
598.121	2.66667
597.785	0.666667
597.447	1
597.112	1.66667
596.774	2.66667
596.436	2.33333
596.1	2.33333
595.762	0.666667
595.424	2
595.088	2.66667
594.75	0.666667
594.415	0
594.077	0
593.739	2
593.403	3
593.065	1
592.727	2
592.391	-1
592.053	0.333333
591.715	2.66667
591.379	1
591.041	1.33333
590.703	0.666667
590.365	3
590.029	3
589.691	0.666667
589.353	2
589.017	1.33333
588.678	4.33333
588.34	0
588.002	2.33333
587.666	1
587.328	1.66667
586.99	1.66667
586.651	0.666667
586.315	1
585.977	1.66667
585.639	0.333333
585.3	2
584.962	2
584.626	2
584.288	3.33333
583.949	-0.333333
583.611	0.666667
583.273	0.333333
582.936	2
582.598	-1
582.26	0
581.921	0
581.583	0.333333
581.244	1.66667
580.906	0.666667
580.57	0.333333
580.231	0.666667
579.893	0.666667
579.554	4
579.216	-0.333333
578.877	1.33333
578.539	1.33333
578.2	1.33333
577.864	5
577.525	-0.666667
577.187	0.666667
576.848	-1
576.51	-2
576.171	2.66667
575.832	3
575.494	3.33333
575.155	1
574.816	0.666667
574.478	4
574.139	2
573.8	1.33333
573.462	1.33333
573.123	0
572.784	1.33333
572.445	-0.333333
572.107	2.66667
571.768	-0.333333
571.429	2.66667
571.09	0.333333
570.751	0.333333
570.413	1.33333
570.074	2.33333
569.735	0.666667
569.396	4
569.057	5
568.718	0.333333
568.38	3.33333
568.041	0.333333
567.702	2
567.363	0.666667
567.024	3.66667
566.685	3.66667
566.346	3.33333
566.007	1.66667
565.668	3.33333
565.329	1.33333
564.988	1.33333
564.649	2.33333
564.31	0.666667
563.971	1
563.632	3.33333
563.292	2.66667
562.953	4.33333
562.614	2
562.273	2.33333
561.934	3.33333
561.595	4.33333
561.256	2.33333
560.916	0.333333
560.577	2.33333
560.236	2.33333
559.897	3.66667
559.558	2
559.218	2.66667
558.879	6.33333
558.54	3.66667
558.198	2.33333
557.859	4
557.52	0.666667
557.181	1.33333
556.839	6.66667
556.5	4
556.16	5.33333
555.821	4.66667
555.48	3.66667
555.14	5.33333
554.801	5.66667
554.461	7.33333
554.12	6.33333
553.78	5.66667
553.441	5.66667
553.102	2
552.76	1.33333
552.42	7.33333
552.081	4
551.739	4
551.4	5.33333
551.06	7.66667
550.719	6
550.379	2.33333
550.039	5.66667
549.698	6.66667
549.358	3.66667
549.019	8.66667
548.677	4.66667
548.337	6.66667
547.998	7.66667
547.656	4.66667
547.316	6
546.977	6.66667
546.635	9
546.295	5.66667
545.953	7.66667
545.613	8
545.274	9.33333
544.932	10.6667
544.592	10
544.25	9.66667
543.91	12.6667
543.57	11.6667
543.229	9
542.889	13.6667
542.547	9
542.207	9.33333
541.865	15
541.525	9.33333
541.183	12.6667
540.843	12.3333
540.501	10.6667
540.161	13
539.819	13.3333
539.479	11.3333
539.137	13.6667
538.797	16
538.455	16
538.115	15.6667
537.773	18
537.433	18.6667
537.091	14.3333
536.75	18
536.408	18
536.068	21.6667
535.726	20.6667
535.386	24
535.044	26
534.703	24.3333
534.361	24.6667
534.019	23
533.679	24.6667
533.336	27
532.996	30
532.654	31.6667
532.312	33.3333
531.971	34.6667
531.629	34.6667
531.289	38
530.946	35.3333
530.604	38
530.264	47.6667
529.921	43.6667
529.579	44.3333
529.238	51.6667
528.896	56.6667
528.556	56.6667
528.213	67
527.871	70.3333
527.53	74
527.188	81
526.845	87.6667
526.503	103.667
526.162	109.333
525.819	131.333
525.477	146
525.136	155.667
524.794	186
524.451	215
524.111	256.333
523.768	277
523.425	333.333
523.083	418
522.742	492.333
522.399	604.333
522.057	767.667
521.714	968.333
521.373	1162
521.03	1388.67
520.688	1605.33
520.345	1732
520.002	1859.67
519.661	1845
519.319	1742.67
518.976	1516.33
518.633	1306.33
518.29	1072
517.949	884
517.606	704.333
517.263	570.667
516.921	469.667
516.578	393
516.235	326.333
515.894	278.667
515.551	233.667
515.208	203.667
514.865	186.333
514.522	151
514.179	145
513.836	121
513.493	110.333
513.152	102.667
512.809	88.3333
512.466	80.3333
512.123	73.6667
511.779	74.6667
511.436	61.6667
511.093	57.6667
510.75	56.6667
510.407	54.3333
510.064	47.6667
509.721	40.3333
509.377	43.6667
509.034	41.3333
508.693	41.6667
508.35	39
508.007	30.6667
507.663	32.3333
507.32	25.3333
506.977	23.3333
506.633	24.6667
506.29	22.6667
505.947	27
505.604	26.3333
505.26	22.6667
504.917	21
504.573	20.3333
504.23	14.6667
503.887	16.6667
503.543	18.3333
503.2	12.3333
502.854	20
502.511	16.3333
502.167	17.3333
501.824	15.3333
501.48	13.3333
501.137	10.6667
500.793	12
500.45	12.6667
500.106	10.6667
499.763	12
499.419	16.6667
499.076	9
498.732	10
498.386	10.3333
498.043	10
497.699	9.33333
497.355	9
497.012	9.33333
496.668	9.66667
496.324	7.66667
495.981	11.3333
495.635	7
495.291	11.3333
494.947	8.66667
494.604	7.66667
494.26	8.66667
493.916	8
493.57	3.33333
493.226	5.66667
492.883	10.3333
492.539	7
492.195	8.33333
491.849	8.33333
491.505	8
491.161	7
490.817	8
490.471	5.66667
490.127	9.33333
489.783	4.66667
489.439	8
489.093	7
488.749	5.33333
488.405	7.66667
488.061	8
487.715	6
487.371	5.33333
487.027	7
486.683	6.33333
486.337	5.66667
485.993	6.33333
485.649	6.33333
485.303	3.33333
484.959	3
484.614	3.66667
484.268	5
483.924	3
483.58	4.33333
483.234	2.66667
482.889	3.66667
482.545	4.66667
482.199	0.333333
481.855	2.66667
481.51	2.66667
481.164	3.66667
480.82	2.33333
480.476	3.66667
480.129	5
479.785	4.66667
479.438	5
479.094	4.33333
478.75	2.33333
478.403	4
478.059	5.66667
477.712	2.66667
477.368	5.33333
477.024	5.33333
476.677	6
476.333	2
475.986	0.666667
475.642	2
475.295	4.33333
474.951	2.66667
474.604	4
474.259	0.666667
473.913	4
473.568	4.33333
473.221	5
472.877	6.33333
472.53	3.66667
472.186	2.33333
471.839	6
471.494	1
471.148	2
470.803	4.66667
470.456	4.66667
470.112	1.33333
469.765	5
469.42	3.33333
469.073	3.33333
468.728	2.66667
468.382	3
468.037	1.66667
467.69	4
467.343	1
466.998	1
466.651	2.66667
466.307	3.33333
465.96	2.33333
465.613	2.66667
465.268	2
464.921	4
464.576	2.66667
464.229	3.66667
463.882	3.33333
463.537	2.33333
463.19	5
462.845	2
462.498	0
462.151	2
461.806	2.33333
461.459	0.666667
461.112	1.66667
460.767	1
460.42	1.33333
460.072	4.33333
459.727	2
459.38	1
459.033	1.66667
458.686	0.666667
458.341	2.66667
457.993	-0.333333
457.646	1.33333
457.301	-0.666667
456.954	3
456.606	-1
456.259	-0.333333
455.914	2
455.567	1.66667
455.219	2
454.872	3
454.527	0.333333
454.179	-1
453.832	3.66667
453.484	2
453.139	4.33333
452.792	2
452.444	1.33333
452.097	-1
451.749	3.33333
451.404	2.33333
451.056	-0.666667
450.709	-1
450.361	4
450.014	2.66667
449.668	2.33333
449.321	-0.333333
448.973	1.66667
448.626	5.33333
448.278	0.666667
447.93	0.333333
447.583	0.333333
447.237	0.666667
446.89	2
446.542	1.66667
446.194	1
445.847	2.66667
445.499	1.66667
445.151	1.66667
444.803	2
444.456	2.66667
444.11	3
443.762	2.33333
443.414	3.33333
443.067	0.666667
442.719	1.33333
442.371	0.333333
442.023	4.33333
441.675	2.66667
441.327	5
440.979	2
440.632	4
440.284	2.33333
439.936	3.33333
439.588	6.66667
439.24	4.66667
438.892	4
438.544	3
438.196	1
437.848	3.66667
437.5	2.66667
437.152	4.66667
436.804	4
436.456	4.66667
436.108	4
435.76	5.33333
435.412	5
435.063	2.33333
434.715	2.66667
434.367	3.66667
434.019	1.33333
433.671	6.66667
433.323	4.33333
432.975	2.33333
432.626	3.33333
432.278	-1
431.928	5
431.579	4
431.231	5.66667
430.883	2.66667
430.535	4.33333
430.186	4.33333
429.838	4.66667
429.49	2.66667
429.142	5
428.791	3.66667
428.443	2.66667
428.094	0
427.746	4
427.398	5
427.049	0.333333
426.701	3.33333
426.35	3.66667
426.002	2
425.653	6.66667
425.305	1.33333
424.956	3.33333
424.606	-0.333333
424.257	5.33333
423.909	3.66667
423.56	2.33333
423.211	2
422.861	3.33333
422.512	3.33333
422.164	2.66667
421.815	3.33333
421.466	-1
421.116	3.33333
420.767	3.66667
420.418	0.333333
420.067	3.33333
419.719	4.33333
419.37	2.66667
419.021	3.33333
418.671	3
418.322	4.66667
417.973	3.33333
417.624	2.33333
417.273	3
416.925	4.33333
416.576	4.33333
416.225	2
415.876	5.33333
415.527	4
415.176	2.33333
414.827	0.333333
414.478	4
414.127	2.66667
413.778	2.33333
413.43	4
413.078	3.33333
412.73	3
412.381	2
412.029	3
411.68	1
411.329	3
410.98	0.666667
410.631	2
410.28	5
409.931	-0.333333
409.58	3
409.231	3.33333
408.882	1.33333
408.53	3
408.181	1.66667
407.83	5
407.481	2.66667
407.13	0.333333
406.78	3
406.429	4.66667
406.08	3.33333
405.731	3.66667
405.379	2
405.03	3.33333
404.679	4.33333
404.329	4.33333
403.978	2.33333
403.629	4.66667
403.277	5.33333
402.928	3
402.576	2.66667
402.227	2.33333
401.876	1.33333
401.526	4
401.175	3.66667
400.825	4.66667
400.474	2
400.122	3
399.773	0.333333
399.421	5
399.072	3.66667
398.72	4.33333
398.371	3
398.019	5.66667
397.667	3
397.318	2.66667
396.966	3
396.617	3.66667
396.265	0
395.915	3.66667
395.564	2
395.212	3.66667
394.862	1.33333
394.51	2.66667
394.159	-0.333333
393.809	3
393.457	4
393.107	-0.333333
392.756	4
392.404	2.33333
392.054	2.33333
391.702	3
391.35	2
391	3.33333
390.648	2.33333
390.297	4
389.945	1
389.595	2
389.243	5.66667
388.891	2.33333
388.541	1.66667
388.189	2.33333
387.837	1.33333
387.487	3
387.135	3.66667
386.783	2
386.431	2.66667
386.081	4
385.729	5
385.377	1.33333
385.024	4.33333
384.674	1.33333
384.322	2
383.97	-0.333333
383.618	6
383.266	3
382.916	1.66667
382.563	3.33333
382.211	1.33333
381.859	2.66667
381.507	1
381.157	4.66667
380.804	2.66667
380.452	2.33333
380.1	5
379.747	5
379.397	2.33333
379.045	3.33333
378.692	4
378.34	2.66667
377.987	2.33333
377.635	3.33333
377.283	2.66667
376.932	2.66667
376.58	2.33333
376.227	2.66667
375.875	4
375.522	2.66667
375.17	3
374.817	7
374.465	4.33333
374.112	4.33333
373.76	2.33333
373.409	3
373.057	2.66667
372.704	4
372.352	3.66667
371.999	3.33333
371.646	3.66667
371.294	4
370.941	0.333333
370.588	5.66667
370.236	3.33333
369.883	3.33333
369.53	4
369.177	3
368.825	5.66667
368.472	3.66667
368.119	5.33333
367.766	7.66667
367.413	2
367.061	3.33333
366.708	3
366.355	2
366.002	4.33333
365.649	4
365.296	5.66667
364.943	3.33333
364.591	2.33333
364.238	3
363.885	3.33333
363.532	4
363.179	3.33333
362.826	2.66667
362.471	4.66667
362.118	2
361.765	2.66667
361.411	4
361.058	2.33333
360.705	3
360.352	3.33333
359.999	5
359.646	3.66667
359.293	2
358.938	2.66667
358.585	4
358.231	2.66667
357.878	6.33333
357.525	3.33333
357.172	2
356.819	4
356.463	3.33333
356.11	4.33333
355.757	4.33333
355.404	3.66667
355.05	5.33333
354.697	2.66667
354.342	3.33333
353.988	6
353.635	3
353.282	4.33333
352.928	4.33333
352.573	3.66667
352.219	4
351.866	4.33333
351.513	4.33333
351.157	0.666667
350.803	2.66667
350.45	2.33333
350.097	7.33333
349.741	4.33333
349.387	5.66667
349.034	4.33333
348.68	4.33333
348.325	3
347.971	2
347.618	3.66667
347.264	3
346.908	3.66667
346.555	3.33333
346.201	2.33333
345.845	2
345.492	7
345.138	3.66667
344.782	0
344.429	4.33333
344.075	4.33333
343.719	4.33333
343.365	4.66667
343.012	4.66667
342.656	2.33333
342.302	5.66667
341.948	1.33333