File: packages/dopes/dopes-2025.1.0.tar.gz/dopes-2025.1.0/examples/data_analysis/raman_silicon/data/514nm_1%_15s/W3L150_18_bottom.txt
692.206	2.66667
691.876	2.33333
691.546	1.33333
691.215	3
690.885	0.666667
690.555	4.33333
690.225	3.33333
689.895	2.66667
689.564	2
689.232	4.33333
688.902	1.33333
688.571	1.33333
688.241	3.33333
687.911	3
687.58	3.33333
687.25	2
686.917	4
686.587	2
686.257	1.66667
685.926	3
685.596	2.33333
685.266	2
684.933	2.33333
684.602	2.33333
684.272	4.66667
683.942	2.66667
683.609	0.666667
683.279	0
682.948	2.33333
682.617	4
682.287	4.66667
681.954	1.33333
681.624	-0.333333
681.293	3
680.963	1.66667
680.63	1.66667
680.299	4
679.969	2.33333
679.636	4.33333
679.305	1
678.975	4.33333
678.644	2.66667
678.311	-0.666667
677.981	0
677.65	2.33333
677.317	5.66667
676.986	5.33333
676.656	4
676.323	3.33333
675.992	4
675.661	4
675.328	1.66667
674.998	4
674.667	3.33333
674.334	3.33333
674.003	2
673.67	3.66667
673.339	3.66667
673.008	3
672.675	1
672.344	3.33333
672.011	3.33333
671.681	2.66667
671.35	3.33333
671.017	3
670.686	5.33333
670.353	3
670.022	1.66667
669.689	3.66667
669.358	4.66667
669.027	4.33333
668.693	4.33333
668.362	5.33333
668.029	5
667.698	5.66667
667.365	1.66667
667.034	4.33333
666.701	2.66667
666.37	1
666.036	3.66667
665.705	6.66667
665.372	4.33333
665.041	5
664.708	3.66667
664.376	3.66667
664.043	5.66667
663.712	3.66667
663.379	3
663.045	-0.333333
662.714	5.33333
662.381	-1
662.049	4.33333
661.716	4
661.385	6
661.051	2
660.718	2.33333
660.387	2
660.053	4.66667
659.722	3.66667
659.388	3
659.055	4.66667
658.724	7
658.39	4
658.059	5
657.725	3.66667
657.392	4
657.06	4.33333
656.727	3
656.393	4
656.062	3.66667
655.728	2.66667
655.394	1.66667
655.063	4.33333
654.729	4.66667
654.396	3.66667
654.064	2.66667
653.73	1.33333
653.397	2
653.063	3.66667
652.731	3.33333
652.398	2
652.064	6
651.73	4
651.399	2.66667
651.065	2.33333
650.731	2.66667
650.397	3.66667
650.066	3.66667
649.732	3.33333
649.398	4.66667
649.064	4
648.732	4
648.399	3.33333
648.065	4.66667
647.731	0.333333
647.397	3.66667
647.065	4
646.731	5
646.397	2
646.063	3.33333
645.729	4
645.398	1.66667
645.064	3.66667
644.73	5.33333
644.396	4
644.062	6
643.727	3
643.393	4.66667
643.062	4.33333
642.727	5
642.393	3.66667
642.059	3.66667
641.725	2.33333
641.391	3
641.057	4.33333
640.723	1.66667
640.389	4.66667
640.054	3
639.72	1
639.388	0.333333
639.054	6.66667
638.72	5
638.386	2.33333
638.051	4
637.717	2.33333
637.383	4.66667
637.049	4.66667
636.714	5
636.38	4.66667
636.046	3.66667
635.711	5
635.377	3.33333
635.043	3.66667
634.708	4
634.374	1.66667
634.04	3.66667
633.705	1
633.371	5.66667
633.036	3.66667
632.702	2.33333
632.368	5.33333
632.033	3.33333
631.699	5
631.364	0.666667
631.03	2.66667
630.693	5.33333
630.359	3.66667
630.024	3.66667
629.689	5
629.355	4
629.02	4
628.686	3
628.351	6.33333
628.017	3
627.682	6.33333
627.345	1
627.011	4.66667
626.676	4
626.341	3.33333
626.007	3.66667
625.672	7.33333
625.337	1.66667
625	6
624.666	3
624.331	4
623.996	4.33333
623.661	2
623.327	4.66667
622.99	4.33333
622.655	1
622.32	2.33333
621.985	6
621.651	3.66667
621.314	7
620.979	4.33333
620.644	2.33333
620.309	7.33333
619.972	2.33333
619.637	4.66667
619.302	4.66667
618.967	4.33333
618.63	5
618.295	6
617.96	3.33333
617.625	5.33333
617.288	4.66667
616.953	4.33333
616.618	1.66667
616.281	6.66667
615.946	6
615.611	6.33333
615.274	2.66667
614.939	6.33333
614.604	7.66667
614.266	4.66667
613.931	5
613.596	2.66667
613.259	3.33333
612.924	7
612.589	2.66667
612.251	5.33333
611.916	5
611.581	2.33333
611.244	4.66667
610.908	2.33333
610.571	5
610.236	3
609.901	5.33333
609.563	5.33333
609.228	4.33333
608.89	4
608.555	1.66667
608.22	3.66667
607.882	0.333333
607.547	2.66667
607.21	2.66667
606.874	1
606.537	3.66667
606.201	4
605.864	2
605.528	2
605.193	4
604.855	3.33333
604.52	3.33333
604.182	6.66667
603.847	4.66667
603.509	3.33333
603.174	3.33333
602.836	4
602.501	4.33333
602.163	3
601.825	3.66667
601.49	2.66667
601.152	5
600.816	3.66667
600.479	4
600.143	5.33333
599.805	6.33333
599.47	2.33333
599.132	2.66667
598.794	2.66667
598.459	3.66667
598.121	1.33333
597.785	3
597.447	5
597.112	0.666667
596.774	3
596.436	4.33333
596.1	6
595.762	1
595.424	4
595.088	3
594.75	3.33333
594.415	4
594.077	0.666667
593.739	3.33333
593.403	6.33333
593.065	0.333333
592.727	7
592.391	2.66667
592.053	1
591.715	2.66667
591.379	5.66667
591.041	2.33333
590.703	1.66667
590.365	2
590.029	2
589.691	1.66667
589.353	1.33333
589.017	1.33333
588.678	0
588.34	2.66667
588.002	4
587.666	1.33333
587.328	2.33333
586.99	2
586.651	2
586.315	2.33333
585.977	3.66667
585.639	5.66667
585.3	1.66667
584.962	4.66667
584.626	2.66667
584.288	3
583.949	3.66667
583.611	4.33333
583.273	0.333333
582.936	3.33333
582.598	4.33333
582.26	4.33333
581.921	2
581.583	2.33333
581.244	2.66667
580.906	4.66667
580.57	3.33333
580.231	4
579.893	3.33333
579.554	2.33333
579.216	2.66667
578.877	3
578.539	3.33333
578.2	2.66667
577.864	2
577.525	3.33333
577.187	1.66667
576.848	4.33333
576.51	5
576.171	2.33333
575.832	1
575.494	2.33333
575.155	3.33333
574.816	3
574.478	2.33333
574.139	3.66667
573.8	3.66667
573.462	1
573.123	3.66667
572.784	5.33333
572.445	4
572.107	3
571.768	5.33333
571.429	3.66667
571.09	2
570.751	2
570.413	1.33333
570.074	2
569.735	0.666667
569.396	3.66667
569.057	4
568.718	4.66667
568.38	4.33333
568.041	2.66667
567.702	3
567.363	5.33333
567.024	1.33333
566.685	1
566.346	3.33333
566.007	4
565.668	5.66667
565.329	-0.333333
564.988	3.66667
564.649	6.33333
564.31	3
563.971	0
563.632	0.666667
563.292	5.33333
562.953	3.66667
562.614	5
562.273	4.66667
561.934	4
561.595	2.66667
561.256	3
560.916	6.66667
560.577	5.33333
560.236	7.66667
559.897	4.66667
559.558	4.33333
559.218	5.66667
558.879	5
558.54	7.66667
558.198	4
557.859	6.66667
557.52	5.33333
557.181	2
556.839	4
556.5	7.33333
556.16	5
555.821	4.66667
555.48	5.33333
555.14	4.66667
554.801	6
554.461	6
554.12	7.66667
553.78	4.66667
553.441	4.66667
553.102	3.33333
552.76	7
552.42	5
552.081	5.33333
551.739	7.33333
551.4	8
551.06	7
550.719	8.66667
550.379	12
550.039	8.33333
549.698	8.66667
549.358	11
549.019	10
548.677	5.33333
548.337	9.33333
547.998	11.6667
547.656	8.33333
547.316	10.6667
546.977	10
546.635	5.66667
546.295	4.66667
545.953	9.66667
545.613	6
545.274	8.33333
544.932	10.6667
544.592	10.3333
544.25	10.3333
543.91	10
543.57	11
543.229	12.6667
542.889	9.66667
542.547	10.3333
542.207	8.33333
541.865	12.3333
541.525	13.6667
541.183	12.3333
540.843	13.3333
540.501	14.3333
540.161	16
539.819	13
539.479	12.6667
539.137	11
538.797	14.6667
538.455	15.3333
538.115	17.6667
537.773	15
537.433	20.6667
537.091	19.6667
536.75	16.3333
536.408	17.3333
536.068	17
535.726	20
535.386	17.3333
535.044	19.3333
534.703	24.6667
534.361	23
534.019	20.6667
533.679	23.3333
533.336	27
532.996	28.3333
532.654	26.6667
532.312	29.6667
531.971	28
531.629	28.6667
531.289	26.6667
530.946	35
530.604	35.3333
530.264	40.6667
529.921	42
529.579	43
529.238	43.6667
528.896	49.3333
528.556	48.3333
528.213	49
527.871	54
527.53	68.3333
527.188	67
526.845	69.3333
526.503	86
526.162	83.6667
525.819	96.3333
525.477	101
525.136	114.333
524.794	133
524.451	161.333
524.111	182
523.768	205.333
523.425	240.667
523.083	304
522.742	350.333
522.399	436
522.057	528.667
521.714	657.333
521.373	793.333
521.03	942.333
520.688	1034
520.345	1134
520.002	1176
519.661	1197.67
519.319	1176.67
518.976	1169.33
518.633	1105.33
518.29	1063
517.949	981.333
517.606	1003.33
517.263	1001.33
516.921	977.333
516.578	943.333
516.235	896
515.894	792.667
515.551	700.667
515.208	564.333
514.865	510
514.522	414.667
514.179	324.667
513.836	284
513.493	242.333
513.152	198.667
512.809	177.667
512.466	148.667
512.123	120.333
511.779	117.667
511.436	88.3333
511.093	98
510.75	78.3333
510.407	72.6667
510.064	71.3333
509.721	59.6667
509.377	65
509.034	61.3333
508.693	49.3333
508.35	43.3333
508.007	46
507.663	48
507.32	39
506.977	43.6667
506.633	34.6667
506.29	29.3333
505.947	26.6667
505.604	32.3333
505.26	28.6667
504.917	29.6667
504.573	25
504.23	23.6667
503.887	21
503.543	16.3333
503.2	23
502.854	22.6667
502.511	20.6667
502.167	18.3333
501.824	22.3333
501.48	15.6667
501.137	16.3333
500.793	15.3333
500.45	14.6667
500.106	11.6667
499.763	13
499.419	15
499.076	16
498.732	14.3333
498.386	5.66667
498.043	14.3333
497.699	15.6667
497.355	9
497.012	13.6667
496.668	14
496.324	10.6667
495.981	13.3333
495.635	10.6667
495.291	6.66667
494.947	11.6667
494.604	8
494.26	7.66667
493.916	7.66667
493.57	12.3333
493.226	12.3333
492.883	10.3333
492.539	10.3333
492.195	11
491.849	10.6667
491.505	8
491.161	9.33333
490.817	7.33333
490.471	7.66667
490.127	6.33333
489.783	6
489.439	9.66667
489.093	7
488.749	5.66667
488.405	8
488.061	11.3333
487.715	9.33333
487.371	7.33333
487.027	8.66667
486.683	8.33333
486.337	7.66667
485.993	8.33333
485.649	8.66667
485.303	7.33333
484.959	7.66667
484.614	6.66667
484.268	10
483.924	9
483.58	8.33333
483.234	8.66667
482.889	5.66667
482.545	8.33333
482.199	7
481.855	6
481.51	8.66667
481.164	7
480.82	4.33333
480.476	4.66667
480.129	5.66667
479.785	7.33333
479.438	5.66667
479.094	7
478.75	6
478.403	6.33333
478.059	5.33333
477.712	9
477.368	6
477.024	3
476.677	8.33333
476.333	4.66667
475.986	5.33333
475.642	2.66667
475.295	7
474.951	7.33333
474.604	6
474.259	5.33333
473.913	5.33333
473.568	6.33333
473.221	4
472.877	7
472.53	6.66667
472.186	5.66667
471.839	8.33333
471.494	3.66667
471.148	6
470.803	5.66667
470.456	7.33333
470.112	6
469.765	4.66667
469.42	5
469.073	5.33333
468.728	3.66667
468.382	5.33333
468.037	3.33333
467.69	4.66667
467.343	8.33333
466.998	2
466.651	5.33333
466.307	4.33333
465.96	5.66667
465.613	6.33333
465.268	3
464.921	5.33333
464.576	5.66667
464.229	5
463.882	3.66667
463.537	3.33333
463.19	4.33333
462.845	3.33333
462.498	5
462.151	3.33333
461.806	3.66667
461.459	4.33333
461.112	5.66667
460.767	2
460.42	3.33333
460.072	4.66667
459.727	2.33333
459.38	4
459.033	3.66667
458.686	6
458.341	1
457.993	2.33333
457.646	-0.333333
457.301	2.33333
456.954	4
456.606	2
456.259	4
455.914	6
455.567	1.66667
455.219	3.66667
454.872	4
454.527	4.33333
454.179	4.66667
453.832	5
453.484	4
453.139	5
452.792	2.33333
452.444	4.33333
452.097	6.66667
451.749	2.66667
451.404	3.33333
451.056	5
450.709	4
450.361	2.33333
450.014	0.333333
449.668	5.33333
449.321	5.33333
448.973	6.33333
448.626	5.33333
448.278	1.66667
447.93	4.66667
447.583	3.66667
447.237	2.33333
446.89	1.33333
446.542	5.66667
446.194	2.66667
445.847	2
445.499	4.66667
445.151	4.66667
444.803	5.33333
444.456	6.66667
444.11	2.33333
443.762	1.66667
443.414	2.66667
443.067	4
442.719	2.66667
442.371	5.66667
442.023	6.33333
441.675	4
441.327	6.66667
440.979	4.66667
440.632	7.33333
440.284	6
439.936	5.33333
439.588	4
439.24	6
438.892	4.66667
438.544	5.66667
438.196	6.33333
437.848	6.66667
437.5	5.66667
437.152	7.66667
436.804	6.33333
436.456	4.66667
436.108	7.66667
435.76	5.33333
435.412	5.33333
435.063	7
434.715	4.33333
434.367	5
434.019	3.33333
433.671	0.666667
433.323	7.33333
432.975	3.66667
432.626	6
432.278	4.66667
431.928	9.33333
431.579	7
431.231	7.66667
430.883	5
430.535	8
430.186	6
429.838	2.66667
429.49	9
429.142	5.33333
428.791	4.66667
428.443	6.66667
428.094	5
427.746	7.66667
427.398	3.33333
427.049	5.66667
426.701	4
426.35	1.66667
426.002	6
425.653	3.33333
425.305	7
424.956	5
424.606	4
424.257	5.33333
423.909	6.33333
423.56	4
423.211	5.66667
422.861	7.66667
422.512	3.33333
422.164	3.66667
421.815	5
421.466	5.33333
421.116	5.66667
420.767	6.33333
420.418	4.66667
420.067	2
419.719	7
419.37	5.66667
419.021	7.33333
418.671	7.33333
418.322	5
417.973	3.33333
417.624	8.33333
417.273	1.66667
416.925	4.33333
416.576	6
416.225	1
415.876	6
415.527	4.66667
415.176	4.33333
414.827	6.66667
414.478	4
414.127	6.33333
413.778	7
413.43	6.66667
413.078	5.33333
412.73	2.66667
412.381	3.33333
412.029	6.33333
411.68	5
411.329	4.66667
410.98	7.33333
410.631	3.33333
410.28	7.33333
409.931	5
409.58	4.33333
409.231	4.33333
408.882	3.33333
408.53	2.66667
408.181	5.33333
407.83	4.66667
407.481	4
407.13	6
406.78	2.66667
406.429	1.66667
406.08	3
405.731	5
405.379	6.66667
405.03	4.66667
404.679	3.33333
404.329	7
403.978	5.66667
403.629	2.33333
403.277	4.33333
402.928	3.33333
402.576	6
402.227	6
401.876	4
401.526	3
401.175	4
400.825	4.66667
400.474	4.33333
400.122	1
399.773	3
399.421	5
399.072	4.33333
398.72	5.66667
398.371	4.33333
398.019	4.33333
397.667	4.33333
397.318	5.33333
396.966	5
396.617	5.33333
396.265	3.33333
395.915	5
395.564	3.66667
395.212	2.33333
394.862	4
394.51	3.66667
394.159	5
393.809	3
393.457	5
393.107	5.33333
392.756	5.33333
392.404	5
392.054	3
391.702	5
391.35	3.33333
391	5
390.648	5.33333
390.297	5.66667
389.945	3.66667
389.595	4.33333
389.243	5.66667
388.891	5.33333
388.541	4
388.189	-1.66667
387.837	7
387.487	4.66667
387.135	3
386.783	3
386.431	5.66667
386.081	5
385.729	4
385.377	4.66667
385.024	5
384.674	4.33333
384.322	5.66667
383.97	4
383.618	6.66667
383.266	2
382.916	5.33333
382.563	7.66667
382.211	5
381.859	6
381.507	5
381.157	7
380.804	6
380.452	6.33333
380.1	2
379.747	5
379.397	5
379.045	4.66667
378.692	1
378.34	8.33333
377.987	5.33333
377.635	9
377.283	9
376.932	3.33333
376.58	6.33333
376.227	6.33333
375.875	5.66667
375.522	5
375.17	7
374.817	4.33333
374.465	5.66667
374.112	5
373.76	6.66667
373.409	3.66667
373.057	5.33333
372.704	5.66667
372.352	4.33333
371.999	5.66667
371.646	4.33333
371.294	6.33333
370.941	2.66667
370.588	3.66667
370.236	5
369.883	7.66667
369.53	4.33333
369.177	5
368.825	6.33333
368.472	7.33333
368.119	5.66667
367.766	1.66667
367.413	1.33333
367.061	4.33333
366.708	5
366.355	4.66667
366.002	4.33333
365.649	8.66667
365.296	7
364.943	6.66667
364.591	3.66667
364.238	3.66667
363.885	7.66667
363.532	3.33333
363.179	4.66667
362.826	3
362.471	5.33333
362.118	5
361.765	6.33333
361.411	4
361.058	8.66667
360.705	8.33333
360.352	1
359.999	6.33333
359.646	7.33333
359.293	5.66667
358.938	3
358.585	7.66667
358.231	7
357.878	3.66667
357.525	5
357.172	8
356.819	7
356.463	7.66667
356.11	9
355.757	4.66667
355.404	7
355.05	4.66667
354.697	5
354.342	5
353.988	5.33333
353.635	6
353.282	6
352.928	7.66667
352.573	8
352.219	5.66667
351.866	7.33333
351.513	7.66667
351.157	6
350.803	6
350.45	5.33333
350.097	9
349.741	3.33333
349.387	7.66667
349.034	5
348.68	5.66667
348.325	8
347.971	7.33333
347.618	3.66667
347.264	7
346.908	4.66667
346.555	6.33333
346.201	5.33333
345.845	4.33333
345.492	10
345.138	9
344.782	6.66667
344.429	6
344.075	6
343.719	5.33333
343.365	5
343.012	7.66667
342.656	7
342.302	8.33333
341.948	2.33333